Folder: five-star-battery-data

Note: README.md
# five-star-battery-data
A repository containing resources related to the Five-Star Battery Data MOOC

Note: star-1.rst
Star One: Open Access
==========================================

.. contents:: Module outline
   :depth: 1
   :local:

Learning objectives
-------------------
- Publish your dataset with a clear, permissive license.
- Place the data in a trusted, citable repository (e.g., Zenodo).
- Capture minimal metadata so others can discover and cite your work.

Watch
-----

.. raw:: html

   <video controls width="100%" preload="metadata">
     <source src="star-1-video.mp4" type="video/mp4">
     Your browser does not support the video tag.
   </video>

:download:`Download the video <star-1-video.mp4>`

Read (key points)
-----------------
- Why openness matters for reuse and citation.
- Repository choices (Zenodo, Figshare, institutional).
- Licensing basics: CC BY vs. CC0 and when to choose each.

Do: hands-on
------------
- :doc:`Walk through the notebook <star-1-notebook>` to prep your first upload.
- :download:`Exercise worksheet <star-1-exercises.md>` to draft metadata and choose a license.

Checklist
---------
- [ ] License selected and applied to the dataset.
- [ ] Repository chosen and DOI minted.
- [ ] Basic metadata (title, authors, abstract, keywords) completed.
- [ ] Landing page includes a short reuse statement.

Further resources
-----------------
- Zenodo community guidelines.
- Creative Commons license chooser.
- Example open battery dataset landing page.

.. toctree::
   :hidden:
   :maxdepth: 1

   star-1-notebook

Note: star-2.rst
Star Two: Structured Data
==========================================

.. contents:: Module outline
   :depth: 1
   :local:

Learning objectives
-------------------
- Reshape raw battery data into tidy, well-typed tables.
- Separate data from presentation (no merged cells, no embedded charts).
- Capture units and measurement context alongside values.

Watch
-----

.. raw:: html

   <video controls width="100%" preload="metadata">
     <source src="star-2-video.mp4" type="video/mp4">
     Your browser does not support the video tag.
   </video>

:download:`Download the video <star-2-video.mp4>`

Read (key points)
-----------------
- Principles of tidy data (rows = observations, columns = variables).
- Consistent headers, units, and value types.
- Recording provenance: instrument, operator, and run parameters.

Do: hands-on
------------
- :doc:`Follow the notebook <star-2-notebook>` to structure a raw cycler export.
- :download:`Exercise worksheet <star-2-exercises.md>` to design your table schema.

Checklist
---------
- [ ] One row per observation, one column per variable.
- [ ] Units documented and consistent.
- [ ] Provenance (who, when, how) recorded with the dataset.
- [ ] No embedded formulas or charts in the data file.

Further resources
-----------------
- Tidy data primer.
- Example structured battery cycling dataset.
- Checklist for provenance capture.

.. toctree::
   :hidden:
   :maxdepth: 1

   star-2-notebook

Note: star-3-exercises.md
# Five-Star Battery Data Quiz

## Star Three: Open Data Formats

**6. Which format is best suited for large, structured tabular battery datasets?**  
- [ ] A. CSV  
- [ ] B. JSON  
- [x] C. PARQUET  
- [ ] D. DOCX  

**7. What is a primary advantage of open data formats?**  
- [x] A. They are accessible and integratable  
- [ ] B. They encrypt the data  
- [ ] C. They compress better  
- [ ] D. They require less metadata  

**8. Which file format is human-readable and commonly used for metadata?**  
- [ ] A. HDF5  
- [ ] B. XLSX  
- [x] C. JSON  
- [ ] D. PARQUET  

**9. What decimal separator should be used in `.csv` files?**  
- [x] A. Dot (`.`)  
- [ ] B. Comma (`,`)  
- [ ] C. Semicolon (`;`)  
- [ ] D. Space  

**10. Which of the following formats is considered proprietary and discouraged?**  
- [ ] A. CSV  
- [ ] B. JSON  
- [x] C. XLSX  
- [ ] D. TXT

Note: star-3.rst
Star Three: Open Formats
==========================================

.. contents:: Module outline
   :depth: 1
   :local:

Learning objectives
-------------------
- Choose open, non-proprietary formats for data and metadata.
- Convert legacy/binary exports into interoperable files.
- Verify files remain readable without specialized software.

Watch
-----

.. raw:: html

   <video controls width="100%" preload="metadata">
     <source src="star-3-video.mov" type="video/quicktime">
     Your browser does not support the video tag.
   </video>

:download:`Download the video <star-3-video.mov>`

Read (key points)
-----------------
- Preferred formats: CSV/TSV, JSON, Parquet for data; JSON-LD/YAML for metadata.
- Avoiding lock-in: why not XLSX-only or proprietary binaries.
- Round-tripping: ensure conversions preserve types, units, and encoding.

Do: hands-on
------------
- :doc:`Run the notebook <star-3-notebook>` to convert binary exports into open formats.
- :download:`Exercise worksheet <star-3-exercises.md>` to plan format choices for your lab.

Checklist
---------
- [ ] Core data available in at least one open, documented format.
- [ ] Character encoding is UTF-8.
- [ ] Conversions validated (row counts, checksums, spot checks on types/units).
- [ ] No required proprietary reader to access the data.

Further resources
-----------------
- Open data format guides.
- Parquet/Arrow basics for columnar data.
- Encoding and locale pitfalls to watch for.

.. toctree::
   :hidden:
   :maxdepth: 1

   star-3-notebook

Note: star-4.rst
Star Four: Semantic Metadata
==========================================

.. contents:: Module outline
   :depth: 1
   :local:

Learning objectives
-------------------
- Describe datasets with controlled vocabularies and ontologies.
- Use machine-readable metadata (JSON-LD) to capture meaning and context.
- Model entities like materials, devices, and processes with stable identifiers.

Watch
-----

.. raw:: html

   <video controls width="100%" preload="metadata">
     <source src="star-4-video.mov" type="video/quicktime">
     Your browser does not support the video tag.
   </video>

:download:`Download the video <star-4-video.mov>`

Read (key points)
-----------------
- Ontology basics: classes, properties, IRIs.
- Minimal JSON-LD patterns for batteries (materials, cells, tests).
- How semantic tags improve search, linking, and reuse.

Do: hands-on
------------
- :doc:`Explore the notebook <star-4-notebook>` to add semantic tags to your dataset.
- :download:`Exercise worksheet <star-4-exercises.md>` to map your terms to an ontology.

Checklist
---------
- [ ] Key entities use shared identifiers (e.g., CHEBI, Wikidata, custom IRIs).
- [ ] Relationships modeled (e.g., cell uses electrode, test measures capacity).
- [ ] Metadata exported as JSON-LD alongside the data.
- [ ] Human-readable documentation describes the schema used.

Further resources
-----------------
- JSON-LD primer.
- Battery-relevant ontologies and vocabularies.
- Examples of semantic annotations in materials data.

.. toctree::
   :hidden:
   :maxdepth: 1

   star-4-notebook

File: raw_data_output_from_cycler.csv
DataPoint,Cycle Index,Step Index,Step Type,Time(s),Total Time(s),Current(A),Voltage(V),Capacity(Ah),Spec. Cap.(mAh/g),Chg. Cap.(Ah),Chg. Spec. Cap.(mAh/g),DChg. Cap.(Ah),DChg. Spec. Cap.(mAh/g),Energy(Wh),Spec. Energy(mWh/g),Chg. Energy(Wh),Chg. Spec. Energy(mWh/g),DChg. Energy(Wh),DChg. Spec. Energy(mWh/g),Date,Power(W),dQ/dV(mAh/V),dQm/dV(mAh/V.g),Contact resistance(mO),Module start-stop switch,SOC/DOD(%),LgD,V1(V),V2(V),V3(V),T1(?),T2(?),T3(?)
1,1,1,Rest,0.0,0.0,0.0,3.8022,0.0,0.0,0.0,0.0,0.0,0.0,0.0,0.0,0.0,0.0,0.0,0.0,2024-10-23 14:51:54,0.0,0.0,0.0,0.0,Close,0.0,,0.0,0.0,0.0002,26.2,26.2,26.4
294,1,1,Rest,2920.0,2920.0,0.0,3.8022,0.0,0.0,0.0,0.0,0.0,0.0,0.0,0.0,0.0,0.0,0.0,0.0,2024-10-23 15:40:34,0.0,0.0,0.0,0.0,Close,0.0,,0.0,0.0,0.0002,26.3,26.3,26.4
587,1,1,Rest,5850.0,5850.0,0.0,3.8022,0.0,0.0,0.0,0.0,0.0,0.0,0.0,0.0,0.0,0.0,0.0,0.0,2024-10-23 16:29:24,0.0,0.0,0.0,0.0,Close,0.0,,0.0,0.0,0.0008,26.3,26.2,26.5
880,1,2,CCCV Chg,1560.0,8760.0,2.181,3.9006,0.9451,945085.51,0.9451,945085.51,0.0,0.0,3.6471,3647057.42,3.6471,3647057.42,0.0,0.0,2024-10-23 17:17:54,8.5071,8654.73,8.65473e+06,1788.48,Close,21.93,,0.0,0.0,0.0003,26.1,26.3,26.5
1173,1,2,CCCV Chg,4490.0,11690.0,2.1807,4.0923,2.7201,2720082.13,2.7201,2720082.13,0.0,0.0,10.7108,10710835.2,10.7108,10710835.2,0.0,0.0,2024-10-23 18:06:43,8.924,4326.73,4.32673e+06,1876.61,Close,63.13,,0.0,0.0001,0.0003,26.2,26.2,26.5
1466,1,2,CCCV Chg,7064.33,14264.33,1.3838,4.35,4.2723,4272287.29,4.2723,4272287.29,0.0,0.0,17.236,17235993.6,17.236,17235993.6,0.0,0.0,2024-10-23 18:49:37,6.0197,0.0,0.0,3143.43,Close,99.16,,0.0,0.0,0.0004,26.4,26.4,26.5
1759,1,4,CC DChg,660.0,16862.56,-0.6546,4.2799,0.12,120009.14,0.0,0.0,0.12,120009.14,0.5162,516164.53,0.0,0.0,0.5162,516164.53,2024-10-23 19:32:56,-2.8016,-3030.61,-3.03061e+06,6538.29,Close,1.67,,0.0,0.0,0.0002,26.3,26.3,26.7
2052,1,4,CC DChg,3590.0,19792.56,-0.6545,4.1722,0.6528,652780.89,0.0,0.0,0.6528,652780.89,2.7641,2764120.0,0.0,0.0,2.7641,2764120.0,2024-10-23 20:21:46,-2.7309,-9092.0,-9092000.0,6374.15,Close,9.1,,0.0,0.0001,0.0002,26.3,26.3,26.6
2345,1,4,CC DChg,6520.0,22722.56,-0.6546,4.0945,1.1856,1185551.82,0.0,0.0,1.1856,1185551.82,4.966,4965964.44,0.0,0.0,4.966,4965964.44,2024-10-23 21:10:36,-2.6802,-6061.037,-6061037.037,6255.06,Close,16.52,,0.0,0.0,0.0003,26.3,26.3,26.7
2638,1,4,CC DChg,9450.0,25652.56,-0.6546,4.0132,1.7183,1718313.07,0.0,0.0,1.7183,1718313.07,7.1301,7130053.69,0.0,0.0,7.1301,7130053.69,2024-10-23 21:59:26,-2.627,-4545.33,-4.54533e+06,6130.86,Close,23.95,,0.0,0.0,-0.0005,26.2,26.2,26.7
2931,1,4,CC DChg,12380.0,28582.56,-0.6546,3.955,2.2511,2251080.0,0.0,0.0,2.2511,2251080.0,9.2493,9249315.56,0.0,0.0,9.2493,9249315.56,2024-10-23 22:48:16,-2.5889,-18181.3,-1.81813e+07,6041.95,Close,31.37,,0.0,0.0,0.0009,26.2,26.2,26.5
3224,1,4,CC DChg,15310.0,31512.56,-0.6545,3.9013,2.7838,2783830.76,0.0,0.0,2.7838,2783830.76,11.3428,11342828.09,0.0,0.0,11.3428,11342828.09,2024-10-23 23:37:06,-2.5533,-9089.78,-9.08978e+06,5960.92,Close,38.79,,0.0,0.0,-0.0004,26.2,26.2,26.6
3517,1,4,CC DChg,18240.0,34442.56,-0.6546,3.846,3.3166,3316582.76,0.0,0.0,3.3166,3316582.76,13.4057,13405661.87,0.0,0.0,13.4057,13405661.87,2024-10-24 00:25:55,-2.5174,-9089.78,-9.08978e+06,5875.7,Close,46.22,,0.0,0.0,0.0,26.2,26.2,26.5
3810,1,4,CC DChg,21170.0,37372.56,-0.6546,3.8105,3.8493,3849327.29,0.0,0.0,3.8493,3849327.29,15.4445,15444482.84,0.0,0.0,15.4445,15444482.84,2024-10-24 01:14:45,-2.4945,-18183.1,-1.81831e+07,5820.76,Close,53.64,,0.0,0.0001,0.0001,26.1,26.3,26.5
4103,1,4,CC DChg,24100.0,40302.56,-0.6546,3.7865,4.3821,4382082.49,0.0,0.0,4.3821,4382082.49,17.4678,17467771.73,0.0,0.0,17.4678,17467771.73,2024-10-24 02:03:35,-2.4786,0.0,0.0,5784.63,Close,61.07,,0.0,0.0001,-0.0002,26.1,26.4,26.7
4396,1,4,CC DChg,27030.0,43232.56,-0.6546,3.7693,4.9148,4914840.53,0.0,0.0,4.9148,4914840.53,19.4802,19480177.78,0.0,0.0,19.4802,19480177.78,2024-10-24 02:52:25,-2.4673,0.0,0.0,5758.26,Close,68.49,,0.0,0.0001,-0.0001,26.4,26.4,26.7
4689,1,4,CC DChg,29960.0,46162.56,-0.6546,3.7497,5.4476,5447597.87,0.0,0.0,5.4476,5447597.87,21.4838,21483842.84,0.0,0.0,21.4838,21483842.84,2024-10-24 03:41:15,-2.4545,-18190.2,-1.81902e+07,5728.41,Close,75.91,,0.0,0.0,0.0006,26.3,26.5,26.8
4982,1,4,CC DChg,32890.0,49092.56,-0.6546,3.72,5.9803,5980344.18,0.0,0.0,5.9803,5980344.18,23.4742,23474221.51,0.0,0.0,23.4742,23474221.51,2024-10-24 04:30:05,-2.435,-9091.56,-9.09156e+06,5683.21,Close,83.34,,0.0,0.0,0.0002,26.4,26.4,26.7
5275,1,4,CC DChg,35820.0,52022.56,-0.6546,3.6835,6.5131,6513090.84,0.0,0.0,6.5131,6513090.84,25.4452,25445233.78,0.0,0.0,25.4452,25445233.78,2024-10-24 05:18:55,-2.4111,-18183.1,-1.81831e+07,5627.36,Close,90.76,,0.0,0.0,0.0002,26.5,26.5,26.6
5568,1,4,CC DChg,38750.0,54952.56,-0.6546,3.4341,7.0458,7045837.51,0.0,0.0,7.0458,7045837.51,27.3733,27373323.38,0.0,0.0,27.3733,27373323.38,2024-10-24 06:07:45,-2.2478,-727.3244,-727324,5246.43,Close,98.19,,0.0,0.0,0.0002,26.4,26.6,26.8
5861,1,6,CCCV Chg,310.0,57778.72,2.181,3.572,0.1878,187810.84,0.1878,187810.84,0.0,0.0,0.6477,647692.09,0.6477,647692.09,0.0,0.0,2024-10-24 06:54:51,7.7906,1121.928,1.12193e+06,1637.77,Close,2.56,,0.0,0.0,0.0006,25.7,25.7,26.0
6154,1,6,CCCV Chg,3240.0,60708.72,2.181,3.8111,1.9629,1962925.33,1.9629,1962925.33,0.0,0.0,7.305,7305032.53,7.305,7305032.53,0.0,0.0,2024-10-24 07:43:41,8.3119,60584.9,6.05849e+07,1747.43,Close,26.8,,0.0,0.0,0.0003,25.8,25.9,26.0
6447,1,6,CCCV Chg,6170.0,63638.72,2.1811,3.8755,3.738,3738028.8,3.738,3738028.8,0.0,0.0,14.1077,14107683.56,14.1077,14107683.56,0.0,0.0,2024-10-24 08:32:31,8.4528,12116.6,1.21166e+07,1776.86,Close,51.03,,0.0,0.0,0.0002,26.1,26.3,26.5
6740,1,6,CCCV Chg,9100.0,66568.72,2.1809,4.0348,5.5131,5513083.38,5.5131,5513083.38,0.0,0.0,21.127,21127001.6,21.127,21127001.6,0.0,0.0,2024-10-24 09:21:20,8.7994,5507.23,5.50723e+06,1850.09,Close,75.27,,0.0,0.0,0.0003,26.6,26.4,26.8
7033,1,6,CCCV Chg,12001.55,69470.27,2.1096,4.35,7.2702,7270237.87,7.2702,7270237.87,0.0,0.0,28.4738,28473833.24,28.4738,28473833.24,0.0,0.0,2024-10-24 10:09:41,9.1766,0.0,0.0,2062.04,Close,99.26,,0.0,0.0001,0.0001,26.2,26.2,26.6
7326,1,8,CC DChg,270.0,71711.41,-6.5501,4.1611,0.4913,491263.07,0.0,0.0,0.4913,491263.07,2.0703,2070326.76,0.0,0.0,2.0703,2070326.76,2024-10-24 10:47:03,-27.2556,-6064.93,-6.06493e+06,635.27,Close,6.79,,0.0,0.0,0.0004,26.7,26.7,27.0
7619,1,8,CC DChg,3200.0,74641.41,-6.5501,3.6896,5.8223,5822315.02,0.0,0.0,5.8223,5822315.02,22.6471,22647123.91,0.0,0.0,22.6471,22647123.91,2024-10-24 11:35:53,-24.1671,-18194.8,-1.81948e+07,563.29,Close,80.42,,0.0,0.0001,0.0002,28.3,28.4,28.5
7912,1,10,CCCV Chg,80.0,77300.39,2.1811,3.4378,0.0485,48467.41,0.0485,48467.41,0.0,0.0,0.1643,164256.63,0.1643,164256.63,0.0,0.0,2024-10-24 12:20:12,7.4982,576.9963,576996,1576.17,Close,0.66,,0.0,0.0,0.0001,26.1,26.1,26.2
8205,1,10,CCCV Chg,3010.0,80230.39,2.181,3.808,1.8236,1823572.98,1.8236,1823572.98,0.0,0.0,6.7874,6787399.11,6.7874,6787399.11,0.0,0.0,2024-10-24 13:09:02,8.3052,60584.9,60584888.889,1746.0,Close,25.01,,0.0,0.0,0.0002,25.9,25.9,26.0
8498,1,10,CCCV Chg,5940.0,83160.39,2.1809,3.8659,3.5987,3598678.76,3.5987,3598678.76,0.0,0.0,13.5821,13582111.29,13.5821,13582111.29,0.0,0.0,2024-10-24 13:57:52,8.4311,15144.9,1.51449e+07,1772.62,Close,49.36,,0.0,0.0,0.0002,26.2,26.2,26.5
8791,1,10,CCCV Chg,8870.0,86090.39,2.1809,4.0186,5.3737,5373726.22,5.3737,5373726.22,0.0,0.0,20.584,20583968.71,20.584,20583968.71,0.0,0.0,2024-10-24 14:46:42,8.7644,7572.44,7.57244e+06,1842.59,Close,73.7,,0.0,0.0,0.0002,26.5,26.5,26.8
9084,1,10,CCCV Chg,11800.0,89020.39,2.1788,4.3277,7.1482,7148227.56,7.1482,7148227.56,0.0,0.0,27.9716,27971629.51,27.9716,27971629.51,0.0,0.0,2024-10-24 15:35:32,9.4293,3783.11,3.78311e+06,1986.25,Close,98.04,,0.0,0.0,0.0002,26.2,26.2,26.5
9377,1,12,CC DChg,50.0,91185.17,-13.1006,4.1866,0.182,181954.02,0.0,0.0,0.182,181954.02,0.7686,768592.98,0.0,0.0,0.7686,768592.98,2024-10-24 16:11:36,-54.8471,-3278.43,-3.27843e+06,319.57,Close,2.52,,0.0,0.0,0.0008,26.5,26.5,26.6
9670,1,13,Rest,670.0,93789.85,0.0,3.3247,0.0,0.0,0.0,0.0,0.0,0.0,0.0,0.0,0.0,0.0,0.0,0.0,2024-10-24 16:55:01,0.0,0.0,0.0,0.0,Close,0.0,,0.0,0.0,-0.0003,26.7,26.7,27.1
9963,1,14,CCCV Chg,1770.0,96689.85,2.1809,3.7623,1.0723,1072336.0,1.0723,1072336.0,0.0,0.0,3.9494,3949394.49,3.9494,3949394.49,0.0,0.0,2024-10-24 17:43:21,8.2054,12117,1.2117e+07,1725.07,Close,14.75,,0.0,0.0,0.0,25.8,25.8,25.9
10256,1,14,CCCV Chg,4700.0,99619.85,2.181,3.8272,2.8474,2847443.02,2.8474,2847443.02,0.0,0.0,10.7032,10703154.49,10.7032,10703154.49,0.0,0.0,2024-10-24 18:32:09,8.347,30292.4,3.02924e+07,1754.82,Close,39.18,,0.0,0.0,0.0001,26.0,26.0,26.5
10549,1,14,CCCV Chg,7630.0,102549.85,2.1809,3.9596,4.6225,4622528.71,4.6225,4622528.71,0.0,0.0,17.5997,17599654.4,17.5997,17599654.4,0.0,0.0,2024-10-24 19:20:59,8.6354,12116.6,1.21166e+07,1815.61,Close,63.6,,0.0,0.0,0.0009,26.0,26.2,26.4
10842,1,14,CCCV Chg,10560.0,105479.85,2.1803,4.1798,6.3974,6397416.53,6.3974,6397416.53,0.0,0.0,24.8014,24801419.38,24.8014,24801419.38,0.0,0.0,2024-10-24 20:09:49,9.1133,6056.53,6.05653e+06,1917.07,Close,88.03,,0.0,0.0,0.0009,25.9,26.1,26.4
11135,1,15,Rest,720.0,107714.34,0.0,4.3354,0.0,0.0,0.0,0.0,0.0,0.0,0.0,0.0,0.0,0.0,0.0,0.0,2024-10-24 20:47:04,0.0,0.0,0.0,0.0,Close,0.0,,0.0,0.0,-0.0001,26.2,26.4,26.5
11428,1,17,Rest,580.0,110165.04,0.0,3.3824,0.0,0.0,0.0,0.0,0.0,0.0,0.0,0.0,0.0,0.0,0.0,0.0,2024-10-24 21:27:55,0.0,0.0,0.0,0.0,Close,0.0,,0.0,0.0,0.0001,27.8,27.8,28.1
11721,1,19,CCCV Chg,1680.0,113065.04,2.181,3.7631,1.0178,1017806.4,1.0178,1017806.4,0.0,0.0,3.7626,3762649.96,3.7626,3762649.96,0.0,0.0,2024-10-25 08:25:08,8.2072,10097.2,1.00972e+07,1725.42,Close,14.09,,0.0,0.0,0.0002,25.8,26.0,26.1
12014,1,19,CCCV Chg,4610.0,115995.04,2.181,3.8276,2.7929,2792912.18,2.7929,2792912.18,0.0,0.0,10.5175,10517491.2,10.5175,10517491.2,0.0,0.0,2024-10-25 09:13:57,8.3481,30289.8,3.02898e+07,1754.94,Close,38.67,,0.0,0.0,0.0002,26.1,26.1,26.4
12307,1,19,CCCV Chg,7540.0,118925.04,2.181,3.9581,4.568,4567993.6,4.568,4567993.6,0.0,0.0,17.4131,17413056.0,17.4131,17413056.0,0.0,0.0,2024-10-25 10:02:47,8.6325,12116.6,1.21166e+07,1814.83,Close,63.24,,0.0,0.0,0.0003,26.2,26.2,26.4
12600,1,19,CCCV Chg,10470.0,121855.04,2.1804,4.1771,6.3429,6342882.13,6.3429,6342882.13,0.0,0.0,24.6109,24610889.96,24.6109,24610889.96,0.0,0.0,2024-10-25 10:51:37,9.1077,6729.48,6.72948e+06,1915.77,Close,87.81,,0.0,0.0,0.0008,26.2,26.2,26.3
12893,1,20,Rest,700.0,124084.11,0.0,4.3367,0.0,0.0,0.0,0.0,0.0,0.0,0.0,0.0,0.0,0.0,0.0,0.0,2024-10-25 11:28:46,0.0,0.0,0.0,0.0,Close,0.0,,0.0,0.0,0.0001,26.3,26.3,26.4
13084,1,21,CC DChg,434.1,125618.21,-59.4614,2.9997,7.17,7169987.56,0.0,0.0,7.17,7169987.56,26.0986,26098588.44,0.0,0.0,26.0986,26098588.44,2024-10-25 11:54:20,-178.3664,-333.5385,-333538,50.45,Close,100.0,,0.0,0.0,0.0002,52.5,50.2,50.4